! Center RA: 18 57 30.97900,  Dec: +16 53 39.54000 (2000.0)
! Tentative model.
! Flux (Jy) Radius (mas)  Theta (deg)  Major (mas)  Axial ratio   Phi (deg) T \
! Freq (Hz)     SpecIndex
2.00818e-05      52.1453     -158.450 
4.16293e-05      52.8435     -160.138 
6.64823e-06      52.0612     -158.236 
6.33862e-06      51.7190     -155.736 
2.24737e-05      52.2006     -158.297 
5.99250e-06      51.7945     -155.955 
5.71885e-06      50.8180     -154.717 
1.64539e-05      53.6880     -162.489 
1.87602e-05      53.0753     -160.400 
5.57035e-06      52.4388     -156.805 
5.45818e-06      49.5488     -154.983 
5.31460e-06      50.6727     -153.886 
5.15017e-06      52.1453     -156.307 
8.60911e-06      53.5449     -162.441 
5.08248e-06      49.4767     -154.752 
4.94906e-06      50.6044     -153.659 
4.90864e-06      54.1554     -161.478 
1.55895e-05      52.7147     -156.933 
5.14934e-06      53.4999     -162.594 
4.75132e-06      49.4129     -154.909 
1.32020e-05      50.5369     -153.431 
1.58498e-05      53.6430     -162.642 
4.49413e-06      51.7808     -155.584 
4.42293e-06      49.3411     -154.678 
8.38173e-06      54.2976     -161.528 
1.22158e-05      50.4703     -153.203 
8.19216e-06      53.9572     -163.744 
8.29210e-06      51.6314     -151.793 
1.12788e-05      54.6736     -155.752 
4.06834e-06      53.7298     -164.007 
3.98868e-06      52.7943     -157.147 
3.95091e-06      49.4967     -155.528 
7.27851e-06      51.4993     -151.714 
1.37426e-05      56.9032     -163.823 
3.60214e-06      49.2771     -154.835 
3.59760e-06      53.6886     -164.161 
9.62379e-06      51.2619     -161.632 
3.39484e-06      51.9175     -155.653 
3.34235e-06      49.7841     -156.057 
3.30888e-06      54.9991     -159.453 
3.30138e-06      53.6479     -164.315 
6.41573e-06      51.3673     -151.635 
4.05730e-06      50.3364     -153.126 
3.22144e-06      52.6561     -157.083 
3.20216e-06      54.3295     -163.529 
8.74236e-06      54.5369     -155.687 
3.15265e-06      54.5352     -161.777 
3.11166e-06      54.6105     -165.413 
7.01224e-06      50.4028     -153.355 
6.60568e-06      50.1724     -159.032 
3.02965e-06      49.2700     -154.445 
4.34000e-06      51.9219     -158.174 
1.13530e-05      53.6254     -154.005 
8.13899e-06      54.7556     -165.452 
4.58352e-06      49.7436     -152.195 
2.89958e-06      48.4608     -156.526 
2.90957e-06      56.8616     -163.968 
7.03727e-06      54.2872     -163.681 
2.84685e-06      49.4347     -155.686 
7.95157e-06      51.5705     -151.568 
3.37284e-06      57.0473     -163.865 
2.53403e-06      55.1396     -159.507 
1.80032e-06      49.1348     -154.370 
1.03052e-06      51.8430     -155.433 
1.40632e-06      50.0864     -158.811 
1.16757e-06      52.9846     -160.193 
2.12466e-07      53.2166     -160.455 
4.38854e-06      48.3233     -156.455 
2.73748e-06      54.4399     -161.578 
1.50850e-06      52.0542     -155.721 
6.35060e-06      49.1998     -154.212 
2.87711e-06      49.6813     -151.961 
7.07546e-07      50.2730     -156.491 
5.27551e-06      51.1195     -161.579 
2.33913e-06      57.0058     -164.010 
6.21654e-07      52.0058     -158.389 
1.30725e-06      52.8527     -156.997 
9.34196e-07      50.1355     -156.422 
3.42334e-07      53.6075     -164.469 
5.28411e-06      49.5490     -151.880 
1.73041e-06      49.5100     -155.916 
5.12567e-06      51.9795     -155.502 
2.07133e-06      55.2801     -159.562 
6.72203e-07      51.4387     -151.488 
1.47480e-05      55.6277     -166.322 
7.29095e-06      54.6122     -155.895 
1.05665e-06      52.6129     -159.874 
4.65583e-08      50.5413     -154.192 
1.03133e-05      54.4312     -163.725 
3.19363e-06      52.7538     -159.930 
1.29247e-05      48.8706     -149.022 
1.97851e-06      54.5823     -161.628 
3.44032e-07      51.8388     -157.959 
1.73185e-06      57.1090     -164.196 
1.62974e-06      52.9909     -157.060 
4.18506e-07      50.7648     -156.916 
1.51610e-06      53.8310     -162.537 
3.31803e-07      51.6998     -157.896 
4.19644e-08      49.9981     -156.354 
1.14097e-06      48.4012     -156.689 
1.35424e-06      49.3731     -155.845 
5.69068e-06      50.9772     -161.526 
7.56660e-06      57.2533     -164.237 
1.43809e-06      51.4789     -157.616 
3.15104e-06      55.4207     -159.616 
2.72431e-07      49.8607     -156.284 
1.38944e-06      54.7246     -161.677 
7.45131e-06      55.5177     -166.135 
3.41810e-06      53.5676     -164.624 
5.48744e-07      49.4878     -151.644 
2.25709e-06      49.0648     -154.136 
8.40856e-06      60.9024     -166.223 
2.81447e-06      49.4167     -151.798 
3.02668e-06      51.1209     -157.269 
3.33253e-06      48.2635     -156.618 
2.51921e-07      49.7234     -156.215 
6.01697e-07      51.9058     -151.580 
1.96283e-06      53.7862     -162.690 
5.80611e-07      50.0324     -158.971 
3.73495e-06      49.9466     -158.748 
1.15047e-06      53.2372     -151.987 
2.09656e-06      53.0709     -157.273 
6.22575e-07      54.8670     -161.726 
6.49741e-07      49.5862     -156.145 
4.19665e-06      53.5725     -151.996 
3.37058e-08      55.1990     -161.676 
2.82894e-06      58.8706     -165.134 
1.12954e-06      55.3414     -161.725 
3.60907e-07      49.2653     -154.055 
7.97827e-07      49.4490     -156.075 
2.42641e-06      49.3558     -151.562 
2.75404e-06      49.1304     -153.979 
1.54920e-06      55.5613     -159.670 
1.36098e-06      56.7973     -158.514 
5.72196e-07      51.7739     -151.501 
1.00222e-06      52.1160     -155.571 
2.94127e-06      50.8350     -161.472 
1.59699e-06      49.3119     -156.004 
8.41199e-07      49.3460     -151.951 
6.97229e-07      55.4838     -161.774 
2.98759e-08      53.1290     -157.123 
4.37929e-07      56.9836     -159.717 
8.67745e-07      57.1243     -159.769 
1.18980e-06      56.9369     -158.569 
6.97015e-07      53.2093     -157.335 
1.14180e-06      60.4061     -168.296 
5.48737e-08      49.2846     -151.715 
1.89701e-07      55.6263     -161.822 
4.77094e-07      49.2757     -152.105 
4.73687e-07      48.1259     -156.547 
2.37167e-07      51.6421     -151.421 
7.97763e-08      55.6733     -161.675 
4.44484e-07      54.5752     -163.770 
2.08446e-07      55.8157     -161.724 
5.21943e-08      49.4274     -151.409 
1.80969e-07      58.2822     -161.437 
1.29267e-07      49.2958     -151.325 
