! Center RA: 18 57 30.97900,  Dec: +16 53 39.54000 (2000.0)
! Tentative model.
! Flux (Jy) Radius (mas)  Theta (deg)  Major (mas)  Axial ratio   Phi (deg) T \
! Freq (Hz)     SpecIndex
2.50671e-05      55.0269     -156.994 
1.59137e-05      54.9958     -154.407 
2.09619e-05      55.0667     -154.616 
9.11369e-06      56.3299     -159.033 
7.48872e-06      54.4568     -156.395 
7.44907e-06      56.2764     -159.176 
7.29764e-06      56.0761     -157.614 
7.11787e-06      58.0853     -159.063 
7.00697e-06      54.1054     -156.058 
6.96811e-06      56.8601     -160.205 
1.34328e-05      54.8606     -154.340 
6.84627e-06      55.7700     -158.813 
1.21617e-05      56.2148     -157.672 
6.60192e-06      53.9684     -155.994 
6.58139e-06      57.1836     -160.640 
6.57912e-06      58.3656     -159.168 
1.71385e-05      70.9739     -173.035 
8.63251e-06      53.3922     -156.598 
1.11617e-05      56.2720     -157.531 
6.25203e-06      55.9961     -159.067 
6.22852e-06      54.9312     -154.549 
1.20432e-05      57.5103     -161.071 
6.11738e-06      53.9544     -155.638 
1.18367e-05      58.5058     -159.220 
5.95622e-06      58.1494     -154.421 
5.90037e-06      55.3507     -158.644 
5.88584e-06      54.7254     -154.272 
5.80433e-06      56.4106     -157.589 
5.74979e-06      53.7560     -155.717 
1.56980e-05      61.4330     -154.180 
6.94039e-06      54.5209     -153.993 
5.58303e-06      53.8121     -162.249 
9.78885e-06      57.4174     -160.881 
1.12333e-05      53.2545     -156.534 
8.70343e-06      64.2454     -153.310 
9.93792e-06      53.2867     -132.866 
5.30353e-06      56.3636     -159.372 
5.31604e-06      53.6813     -155.506 
1.02942e-05      54.3861     -153.924 
5.25338e-06      57.7928     -161.637 
5.21944e-06      52.0092     -160.914 
9.99815e-06      58.6461     -159.272 
5.05501e-06      54.7923     -158.416 
5.05141e-06      53.5448     -155.439 
9.60199e-06      55.8601     -162.759 
4.92630e-06      56.2012     -152.608 
4.91031e-06      57.2757     -160.831 
4.83304e-06      55.9014     -151.228 
5.87807e-06      64.4468     -153.251 
1.32819e-05      57.8882     -161.825 
4.72127e-06      55.8244     -158.669 
1.17183e-05      55.1382     -154.823 
4.64621e-06      51.3010     -160.640 
4.59400e-06      53.4084     -155.372 
8.70436e-06      57.6916     -157.630 
4.53079e-06      55.7700     -151.154 
4.48788e-06      58.2143     -154.288 
7.35237e-06      56.1898     -158.978 
7.52830e-06      55.9991     -152.674 
5.31107e-06      71.1228     -173.050 
4.38373e-06      54.3177     -153.712 
5.22494e-06      58.5932     -159.410 
8.31745e-06      49.7264     -164.000 
4.32566e-06      57.5681     -150.089 
1.29424e-05      59.4986     -156.467 
4.28323e-06      53.4827     -155.585 
1.30256e-05      60.9894     -151.602 
4.39248e-06      54.3187     -158.388 
4.20059e-06      65.6545     -153.196 
4.18171e-06      56.0034     -162.805 
1.06784e-05      55.7113     -150.945 
4.71489e-06      53.1950     -156.682 
1.07641e-05      57.6430     -149.960 
9.36111e-06      48.9984     -158.376 
4.03916e-06      53.7666     -162.401 
4.03377e-06      61.2327     -154.246 
9.37286e-07      55.9375     -157.555 
1.93660e-06      53.2721     -155.305 
2.40143e-06      53.3889     -132.984 
6.97384e-06      55.3742     -161.297 
7.07175e-06      48.0924     -139.464 
4.62329e-06      57.8303     -157.687 
7.76557e-08      56.2981     -158.693 
1.14661e-06      56.2438     -158.836 
1.36220e-06      54.2896     -155.624 
1.85938e-06      56.1040     -158.780 
1.53344e-07      57.3251     -160.690 
3.67618e-06      50.6852     -160.575 
7.12479e-06      58.7336     -159.461 
2.18990e-06      57.4667     -160.739 
6.82405e-07      56.1467     -162.850 
4.79300e-06      57.9843     -162.012 
1.51502e-07      55.8564     -157.354 
1.85706e-06      53.1359     -155.237 
5.33670e-06      54.5977     -158.504 
8.13020e-06      65.7884     -153.255 
1.15652e-06      55.7180     -157.295 
1.48205e-06      56.1026     -162.996 
6.62701e-07      50.8267     -160.631 
1.37041e-06      54.4882     -155.546 
9.27525e-07      50.6134     -133.594 
7.03705e-06      61.0976     -154.185 
6.08574e-06      57.4381     -150.015 
8.62058e-06      49.8706     -164.048 
5.46226e-06      56.2461     -163.041 
1.97931e-06      52.9997     -155.170 
9.42332e-06      60.8575     -151.535 
9.68641e-07      53.3328     -156.746 
4.32887e-06      57.9691     -157.743 
7.38790e-06      55.5802     -150.870 
4.09646e-06      54.4263     -155.689 
1.88305e-06      54.1833     -153.642 
8.80601e-07      55.5797     -157.235 
1.86048e-06      57.7009     -160.978 
3.43984e-07      48.2065     -139.580 
8.43417e-06      58.1270     -162.058 
7.48013e-07      56.0498     -158.923 
9.48292e-07      52.7911     -154.885 
2.03713e-07      56.8855     -151.943 
1.30526e-06      53.9096     -162.449 
6.95210e-07      57.7438     -154.228 
5.83069e-07      57.0179     -152.013 
5.85767e-06      52.6553     -154.816 
4.07929e-06      55.2237     -156.911 
3.59078e-06      57.5132     -149.885 
1.77804e-06      58.0261     -157.606 
1.51902e-06      57.8428     -161.027 
3.63354e-06      54.4582     -158.446 
6.21539e-06      57.3082     -149.940 
3.49589e-06      60.2597     -161.364 
3.89210e-06      56.3896     -163.085 
1.65234e-06      53.8645     -162.601 
9.46830e-07      57.2208     -151.951 
2.93669e-06      58.1080     -157.799 
1.82175e-07      54.0489     -153.571 
2.80446e-06      55.2022     -154.682 
1.19885e-06      48.3186     -155.736 
1.10013e-06      62.8685     -155.264 
6.91563e-07      57.6087     -154.163 
2.82748e-06      55.4493     -150.794 
1.44094e-06      58.8741     -159.512 
8.09407e-07      57.7500     -160.837 
2.40947e-06      48.1819     -155.662 
1.02870e-06      59.3012     -156.542 
5.85802e-08      53.8477     -153.286 
5.13388e-07      58.1648     -157.662 
3.41011e-07      53.7137     -153.214 
1.81775e-06      60.4019     -161.409 
6.80735e-07      55.2806     -161.100 
9.01305e-07      58.2697     -162.103 
5.06585e-07      60.9626     -154.123 
2.81148e-07      57.3532     -152.022 
5.56863e-08      55.3762     -150.930 
